"Trial","acc","accuracy","average_response_time","avg_rt","background","bidi","canvas_backend","clock_backend","color_backend","compatibility","compensation","contingency","contingent_action","coordinates","correct","correct_Instructions","correct_Welcome","correct_response","count_B_video","count_B_video_1","count_Baseline","count_Baseline_1","count_Black_screen","count_Black_screen_1","count_Black_screen_2","count_Bye","count_Fixation","count_Fixation_1","count_Fixation_2","count_Instructions","count_Instructions_1","count_Interblock","count_Interblock_1","count_Pause","count_Pause_1","count_Pause_2","count_T_video","count_T_video_1","count_Test","count_Test_1","count_Trial_1","count_Trial_1_1","count_Trial_2","count_Trial_2_1","count_Welcome","count_experiment","count_log","datetime","description","disable_garbage_collection","experiment_file","experiment_path","expyriment_opengl","font_bold","font_family","font_italic","font_size","font_underline","foreground","form_clicks","fullscreen","height","keyboard_backend","keyreleaseRT","keyresponse","live_row","live_row_Baseline","logfile","mouse_backend","opensesame_codename","opensesame_version","repeat_cycle","response","response_Bye","response_Instructions","response_Instructions_1","response_Interblock","response_Interblock_1","response_Pause","response_Pause_1","response_Pause_2","response_Welcome","response_time","response_time_Bye","response_time_Instructions","response_time_Instructions_1","response_time_Interblock","response_time_Interblock_1","response_time_Pause","response_time_Pause_1","response_time_Pause_2","response_time_Welcome","round_decimals","sampler_backend","sound_buf_size","sound_channels","sound_freq","sound_sample_size","start","subject_nr","subject_parity","time_B_video","time_B_video_1","time_Baseline","time_Baseline_1","time_Black_screen","time_Black_screen_1","time_Black_screen_2","time_Bye","time_Fixation","time_Fixation_1","time_Fixation_2","time_Instructions","time_Instructions_1","time_Interblock","time_Interblock_1","time_Pause","time_Pause_1","time_Pause_2","time_T_video","time_T_video_1","time_Test","time_Test_1","time_Trial_1","time_Trial_1_1","time_Trial_2","time_Trial_2_1","time_Welcome","time_delay_RT","time_experiment","time_log","title","total_correct","total_response_time","total_responses","uniform_coordinates","video","video_duration","width"
"Baseline","undefined","0","undefined","undefined","black","no","legacy","legacy","legacy","incompatible","0","2","1","uniform","undefined","undefined","undefined","1","0","NA","0","0","0","NA","NA","0","0","NA","NA","0","0","0","0","0","NA","NA","NA","NA","0","0","0","NA","NA","NA","0","0","0","08/03/18 14:09:11","The main experiment item","yes","1MarcellBrass_FollowUp.osexp","C:\Users\Somby\Desktop\Marcell Brass Task - Follow Up","no","no","mono","no","18","no","white","no","yes","720","legacy","2031","1","0","0","C:\Users\Somby\Desktop\Marcell Brass Task - Follow Up\defaultlog.csv","legacy","Jazzy James","3.1.4","0","space","NA","space","NA","NA","NA","NA","NA","NA","space","15031","NA","15031","NA","NA","NA","NA","NA","NA","3201","2","legacy","1024","2","48000","-16","experiment","0","even","20009","NA","19489","NA","26017","NA","NA","NA","19509","NA","NA","4458","NA","NA","NA","NA","NA","NA","NA","NA","NA","NA","19508","NA","NA","NA","1256","2026","1254","27517","Nouvelle expérience","0","0","0","yes","2_middle.avi","4526","1280"
"Baseline","undefined","1","undefined","undefined","black","no","legacy","legacy","legacy","compatible","0","1","1","uniform","undefined","undefined","undefined","1","1","NA","0","0","1","NA","NA","0","1","NA","NA","0","0","0","0","1","NA","NA","NA","NA","0","0","1","NA","NA","NA","0","0","1","08/03/18 14:09:11","The main experiment item","yes","1MarcellBrass_FollowUp.osexp","C:\Users\Somby\Desktop\Marcell Brass Task - Follow Up","no","no","mono","no","18","no","white","no","yes","720","legacy","3040","1","1","1","C:\Users\Somby\Desktop\Marcell Brass Task - Follow Up\defaultlog.csv","legacy","Jazzy James","3.1.4","0","space","NA","space","NA","NA","NA","NA","NA","NA","space","15031","NA","15031","NA","NA","NA","NA","NA","NA","3201","2","legacy","1024","2","48000","-16","experiment","0","even","28141","NA","19489","NA","33868","NA","NA","NA","27641","NA","NA","4458","NA","NA","NA","NA","NA","NA","NA","NA","NA","NA","27640","NA","NA","NA","1256","2038","1254","35368","Nouvelle expérience","0","0","0","yes","1_index.avi","4538","1280"
"Baseline","undefined","1","undefined","undefined","black","no","legacy","legacy","legacy","incompatible","0","2","3","uniform","undefined","undefined","undefined","3","2","NA","0","0","2","NA","NA","0","2","NA","NA","0","0","0","0","2","NA","NA","NA","NA","0","0","2","NA","NA","NA","0","0","2","08/03/18 14:09:11","The main experiment item","yes","1MarcellBrass_FollowUp.osexp","C:\Users\Somby\Desktop\Marcell Brass Task - Follow Up","no","no","mono","no","18","no","white","no","yes","720","legacy","3183","3","2","2","C:\Users\Somby\Desktop\Marcell Brass Task - Follow Up\defaultlog.csv","legacy","Jazzy James","3.1.4","0","space","NA","space","NA","NA","NA","NA","NA","NA","space","15031","NA","15031","NA","NA","NA","NA","NA","NA","3201","2","legacy","1024","2","48000","-16","experiment","0","even","35947","NA","19489","NA","41557","NA","NA","NA","35447","NA","NA","4458","NA","NA","NA","NA","NA","NA","NA","NA","NA","NA","35446","NA","NA","NA","1256","2030","1254","43058","Nouvelle expérience","0","0","0","yes","2_index.avi","4530","1280"
"Baseline","undefined","0","undefined","undefined","black","no","legacy","legacy","legacy","compatible","0","1","3","uniform","undefined","undefined","undefined","3","3","NA","0","0","3","NA","NA","0","3","NA","NA","0","0","0","0","3","NA","NA","NA","NA","0","0","3","NA","NA","NA","0","0","3","08/03/18 14:09:11","The main experiment item","yes","1MarcellBrass_FollowUp.osexp","C:\Users\Somby\Desktop\Marcell Brass Task - Follow Up","no","no","mono","no","18","no","white","no","yes","720","legacy","2033","3","3","3","C:\Users\Somby\Desktop\Marcell Brass Task - Follow Up\defaultlog.csv","legacy","Jazzy James","3.1.4","0","space","NA","space","NA","NA","NA","NA","NA","NA","space","15031","NA","15031","NA","NA","NA","NA","NA","NA","3201","2","legacy","1024","2","48000","-16","experiment","0","even","43640","NA","19489","NA","50257","NA","NA","NA","43139","NA","NA","4458","NA","NA","NA","NA","NA","NA","NA","NA","NA","NA","43138","NA","NA","NA","1256","2029","1254","51757","Nouvelle expérience","0","0","0","yes","1_middle.avi","4529","1280"
"Baseline_1","undefined","1","undefined","undefined","black","no","legacy","legacy","legacy","incompatible","0","2","3","uniform","0","undefined","undefined","3","3","0","0","0","3","0","NA","0","3","0","NA","0","0","0","0","3","0","NA","NA","NA","0","0","3","0","NA","NA","0","0","4","08/03/18 14:09:11","The main experiment item","yes","1MarcellBrass_FollowUp.osexp","C:\Users\Somby\Desktop\Marcell Brass Task - Follow Up","no","no","mono","no","18","no","white","no","yes","720","legacy","3085","3","0","3","C:\Users\Somby\Desktop\Marcell Brass Task - Follow Up\defaultlog.csv","legacy","Jazzy James","3.1.4","0","space","NA","space","space","NA","NA","NA","NA","NA","space","9421","NA","15031","9421","NA","NA","NA","NA","NA","3201","2","legacy","1024","2","48000","-16","experiment","0","even","43640","61773","19489","61230","50257","68522","NA","NA","43139","61273","NA","4458","51808","NA","NA","NA","NA","NA","NA","NA","NA","NA","43138","61272","NA","NA","1256","2031","1254","70022","Nouvelle expérience","0","0","0","yes","2_index.avi","4531","1280"
"Baseline_1","undefined","1","undefined","undefined","black","no","legacy","legacy","legacy","incompatible","0","2","3","uniform","0","undefined","undefined","3","3","1","0","0","3","1","NA","0","3","1","NA","0","0","0","0","3","1","NA","NA","NA","0","0","3","1","NA","NA","0","0","5","08/03/18 14:09:11","The main experiment item","yes","1MarcellBrass_FollowUp.osexp","C:\Users\Somby\Desktop\Marcell Brass Task - Follow Up","no","no","mono","no","18","no","white","no","yes","720","legacy","3431","3","1","3","C:\Users\Somby\Desktop\Marcell Brass Task - Follow Up\defaultlog.csv","legacy","Jazzy James","3.1.4","0","space","NA","space","space","NA","NA","NA","NA","NA","space","9421","NA","15031","9421","NA","NA","NA","NA","NA","3201","2","legacy","1024","2","48000","-16","experiment","0","even","43640","70648","19489","61230","50257","77258","NA","NA","43139","70148","NA","4458","51808","NA","NA","NA","NA","NA","NA","NA","NA","NA","43138","70147","NA","NA","1256","2028","1254","78758","Nouvelle expérience","0","0","0","yes","2_index.avi","4528","1280"
"Baseline_1","undefined","1","undefined","undefined","black","no","legacy","legacy","legacy","incompatible","0","2","3","uniform","0","undefined","undefined","3","3","2","0","0","3","2","NA","0","3","2","NA","0","0","0","0","3","2","NA","NA","NA","0","0","3","2","NA","NA","0","0","6","08/03/18 14:09:11","The main experiment item","yes","1MarcellBrass_FollowUp.osexp","C:\Users\Somby\Desktop\Marcell Brass Task - Follow Up","no","no","mono","no","18","no","white","no","yes","720","legacy","3244","3","2","3","C:\Users\Somby\Desktop\Marcell Brass Task - Follow Up\defaultlog.csv","legacy","Jazzy James","3.1.4","0","space","NA","space","space","NA","NA","NA","NA","NA","space","9421","NA","15031","9421","NA","NA","NA","NA","NA","3201","2","legacy","1024","2","48000","-16","experiment","0","even","43640","79327","19489","61230","50257","85347","NA","NA","43139","78827","NA","4458","51808","NA","NA","NA","NA","NA","NA","NA","NA","NA","43138","78826","NA","NA","1256","2040","1254","86847","Nouvelle expérience","0","0","0","yes","2_index.avi","4540","1280"
"Baseline_1","undefined","1","undefined","undefined","black","no","legacy","legacy","legacy","compatible","0","1","1","uniform","0","undefined","undefined","1","3","3","0","0","3","3","NA","0","3","3","NA","0","0","0","0","3","3","NA","NA","NA","0","0","3","3","NA","NA","0","0","7","08/03/18 14:09:11","The main experiment item","yes","1MarcellBrass_FollowUp.osexp","C:\Users\Somby\Desktop\Marcell Brass Task - Follow Up","no","no","mono","no","18","no","white","no","yes","720","legacy","3336","1","3","3","C:\Users\Somby\Desktop\Marcell Brass Task - Follow Up\defaultlog.csv","legacy","Jazzy James","3.1.4","0","space","NA","space","space","NA","NA","NA","NA","NA","space","9421","NA","15031","9421","NA","NA","NA","NA","NA","3201","2","legacy","1024","2","48000","-16","experiment","0","even","43640","87419","19489","61230","50257","94053","NA","NA","43139","86919","NA","4458","51808","NA","NA","NA","NA","NA","NA","NA","NA","NA","43138","86917","NA","NA","1256","2033","1254","95553","Nouvelle expérience","0","0","0","yes","1_index.avi","4533","1280"
"Baseline_1","undefined","1","undefined","undefined","black","no","legacy","legacy","legacy","incompatible","0","2","3","uniform","0","undefined","undefined","3","3","4","0","0","3","4","NA","0","3","4","NA","0","0","0","0","3","4","NA","NA","NA","0","0","3","4","NA","NA","0","0","8","08/03/18 14:09:11","The main experiment item","yes","1MarcellBrass_FollowUp.osexp","C:\Users\Somby\Desktop\Marcell Brass Task - Follow Up","no","no","mono","no","18","no","white","no","yes","720","legacy","2929","3","4","3","C:\Users\Somby\Desktop\Marcell Brass Task - Follow Up\defaultlog.csv","legacy","Jazzy James","3.1.4","0","space","NA","space","space","NA","NA","NA","NA","NA","space","9421","NA","15031","9421","NA","NA","NA","NA","NA","3201","2","legacy","1024","2","48000","-16","experiment","0","even","43640","96125","19489","61230","50257","101709","NA","NA","43139","95625","NA","4458","51808","NA","NA","NA","NA","NA","NA","NA","NA","NA","43138","95624","NA","NA","1256","2026","1254","103209","Nouvelle expérience","0","0","0","yes","2_index.avi","4526","1280"
"Baseline_1","undefined","0","undefined","undefined","black","no","legacy","legacy","legacy","compatible","0","1","1","uniform","0","undefined","undefined","1","3","5","0","0","3","5","NA","0","3","5","NA","0","0","0","0","3","5","NA","NA","NA","0","0","3","5","NA","NA","0","0","9","08/03/18 14:09:11","The main experiment item","yes","1MarcellBrass_FollowUp.osexp","C:\Users\Somby\Desktop\Marcell Brass Task - Follow Up","no","no","mono","no","18","no","white","no","yes","720","legacy","3288","3","5","3","C:\Users\Somby\Desktop\Marcell Brass Task - Follow Up\defaultlog.csv","legacy","Jazzy James","3.1.4","0","space","NA","space","space","NA","NA","NA","NA","NA","space","9421","NA","15031","9421","NA","NA","NA","NA","NA","3201","2","legacy","1024","2","48000","-16","experiment","0","even","43640","103803","19489","61230","50257","109471","NA","NA","43139","103303","NA","4458","51808","NA","NA","NA","NA","NA","NA","NA","NA","NA","43138","103302","NA","NA","1256","2035","1254","110971","Nouvelle expérience","0","0","0","yes","1_index.avi","4535","1280"
"Baseline_1","undefined","1","undefined","undefined","black","no","legacy","legacy","legacy","compatible","0","1","1","uniform","0","undefined","undefined","1","3","6","0","0","3","6","NA","0","3","6","NA","0","0","0","0","3","6","NA","NA","NA","0","0","3","6","NA","NA","0","0","10","08/03/18 14:09:11","The main experiment item","yes","1MarcellBrass_FollowUp.osexp","C:\Users\Somby\Desktop\Marcell Brass Task - Follow Up","no","no","mono","no","18","no","white","no","yes","720","legacy","3233","1","6","3","C:\Users\Somby\Desktop\Marcell Brass Task - Follow Up\defaultlog.csv","legacy","Jazzy James","3.1.4","0","space","NA","space","space","NA","NA","NA","NA","NA","space","9421","NA","15031","9421","NA","NA","NA","NA","NA","3201","2","legacy","1024","2","48000","-16","experiment","0","even","43640","111544","19489","61230","50257","118176","NA","NA","43139","111044","NA","4458","51808","NA","NA","NA","NA","NA","NA","NA","NA","NA","43138","111043","NA","NA","1256","2030","1254","119676","Nouvelle expérience","0","0","0","yes","1_index.avi","4530","1280"
"Baseline_1","undefined","0","undefined","undefined","black","no","legacy","legacy","legacy","compatible","0","1","3","uniform","0","undefined","undefined","3","3","7","0","0","3","7","NA","0","3","7","NA","0","0","0","0","3","7","NA","NA","NA","0","0","3","7","NA","NA","0","0","11","08/03/18 14:09:11","The main experiment item","yes","1MarcellBrass_FollowUp.osexp","C:\Users\Somby\Desktop\Marcell Brass Task - Follow Up","no","no","mono","no","18","no","white","no","yes","720","legacy","3329","1","7","3","C:\Users\Somby\Desktop\Marcell Brass Task - Follow Up\defaultlog.csv","legacy","Jazzy James","3.1.4","0","space","NA","space","space","NA","NA","NA","NA","NA","space","9421","NA","15031","9421","NA","NA","NA","NA","NA","3201","2","legacy","1024","2","48000","-16","experiment","0","even","43640","120245","19489","61230","50257","125830","NA","NA","43139","119745","NA","4458","51808","NA","NA","NA","NA","NA","NA","NA","NA","NA","43138","119744","NA","NA","1256","2026","1254","127330","Nouvelle expérience","0","0","0","yes","1_middle.avi","4526","1280"
"Baseline_1","undefined","1","undefined","undefined","black","no","legacy","legacy","legacy","compatible","0","1","1","uniform","0","undefined","undefined","1","3","8","0","0","3","8","NA","0","3","8","NA","0","0","0","0","3","8","NA","NA","NA","0","0","3","8","NA","NA","0","0","12","08/03/18 14:09:11","The main experiment item","yes","1MarcellBrass_FollowUp.osexp","C:\Users\Somby\Desktop\Marcell Brass Task - Follow Up","no","no","mono","no","18","no","white","no","yes","720","legacy","2938","1","8","3","C:\Users\Somby\Desktop\Marcell Brass Task - Follow Up\defaultlog.csv","legacy","Jazzy James","3.1.4","0","space","NA","space","space","NA","NA","NA","NA","NA","space","9421","NA","15031","9421","NA","NA","NA","NA","NA","3201","2","legacy","1024","2","48000","-16","experiment","0","even","43640","127919","19489","61230","50257","133982","NA","NA","43139","127419","NA","4458","51808","NA","NA","NA","NA","NA","NA","NA","NA","NA","43138","127418","NA","NA","1256","2034","1254","135482","Nouvelle expérience","0","0","0","yes","1_index.avi","4534","1280"
"Baseline_1","undefined","1","undefined","undefined","black","no","legacy","legacy","legacy","incompatible","0","2","1","uniform","0","undefined","undefined","1","3","9","0","0","3","9","NA","0","3","9","NA","0","0","0","0","3","9","NA","NA","NA","0","0","3","9","NA","NA","0","0","13","08/03/18 14:09:11","The main experiment item","yes","1MarcellBrass_FollowUp.osexp","C:\Users\Somby\Desktop\Marcell Brass Task - Follow Up","no","no","mono","no","18","no","white","no","yes","720","legacy","3030","1","9","3","C:\Users\Somby\Desktop\Marcell Brass Task - Follow Up\defaultlog.csv","legacy","Jazzy James","3.1.4","0","space","NA","space","space","NA","NA","NA","NA","NA","space","9421","NA","15031","9421","NA","NA","NA","NA","NA","3201","2","legacy","1024","2","48000","-16","experiment","0","even","43640","136055","19489","61230","50257","142659","NA","NA","43139","135555","NA","4458","51808","NA","NA","NA","NA","NA","NA","NA","NA","NA","43138","135554","NA","NA","1256","2027","1254","144159","Nouvelle expérience","0","0","0","yes","2_middle.avi","4527","1280"
"Baseline_1","undefined","0","undefined","undefined","black","no","legacy","legacy","legacy","compatible","0","1","3","uniform","0","undefined","undefined","3","3","10","0","0","3","10","NA","0","3","10","NA","0","0","0","0","3","10","NA","NA","NA","0","0","3","10","NA","NA","0","0","14","08/03/18 14:09:11","The main experiment item","yes","1MarcellBrass_FollowUp.osexp","C:\Users\Somby\Desktop\Marcell Brass Task - Follow Up","no","no","mono","no","18","no","white","no","yes","720","legacy","3181","1","10","3","C:\Users\Somby\Desktop\Marcell Brass Task - Follow Up\defaultlog.csv","legacy","Jazzy James","3.1.4","0","space","NA","space","space","NA","NA","NA","NA","NA","space","9421","NA","15031","9421","NA","NA","NA","NA","NA","3201","2","legacy","1024","2","48000","-16","experiment","0","even","43640","144748","19489","61230","50257","151358","NA","NA","43139","144248","NA","4458","51808","NA","NA","NA","NA","NA","NA","NA","NA","NA","43138","144247","NA","NA","1256","2028","1254","152858","Nouvelle expérience","0","0","0","yes","1_middle.avi","4528","1280"
"Baseline_1","undefined","1","undefined","undefined","black","no","legacy","legacy","legacy","incompatible","0","2","3","uniform","0","undefined","undefined","3","3","11","0","0","3","11","NA","0","3","11","NA","0","0","0","0","3","11","NA","NA","NA","0","0","3","11","NA","NA","0","0","15","08/03/18 14:09:11","The main experiment item","yes","1MarcellBrass_FollowUp.osexp","C:\Users\Somby\Desktop\Marcell Brass Task - Follow Up","no","no","mono","no","18","no","white","no","yes","720","legacy","3329","3","11","3","C:\Users\Somby\Desktop\Marcell Brass Task - Follow Up\defaultlog.csv","legacy","Jazzy James","3.1.4","0","space","NA","space","space","NA","NA","NA","NA","NA","space","9421","NA","15031","9421","NA","NA","NA","NA","NA","3201","2","legacy","1024","2","48000","-16","experiment","0","even","43640","153450","19489","61230","50257","160566","NA","NA","43139","152950","NA","4458","51808","NA","NA","NA","NA","NA","NA","NA","NA","NA","43138","152949","NA","NA","1256","2026","1254","162066","Nouvelle expérience","0","0","0","yes","2_index.avi","4526","1280"
"Baseline_1","undefined","1","undefined","undefined","black","no","legacy","legacy","legacy","incompatible","0","2","1","uniform","0","undefined","undefined","1","3","12","0","0","3","12","NA","0","3","12","NA","0","0","0","0","3","12","NA","NA","NA","0","0","3","12","NA","NA","0","0","16","08/03/18 14:09:11","The main experiment item","yes","1MarcellBrass_FollowUp.osexp","C:\Users\Somby\Desktop\Marcell Brass Task - Follow Up","no","no","mono","no","18","no","white","no","yes","720","legacy","3187","1","12","3","C:\Users\Somby\Desktop\Marcell Brass Task - Follow Up\defaultlog.csv","legacy","Jazzy James","3.1.4","0","space","NA","space","space","NA","NA","NA","NA","NA","space","9421","NA","15031","9421","NA","NA","NA","NA","NA","3201","2","legacy","1024","2","48000","-16","experiment","0","even","43640","162656","19489","61230","50257","168422","NA","NA","43139","162156","NA","4458","51808","NA","NA","NA","NA","NA","NA","NA","NA","NA","43138","162155","NA","NA","1256","2034","1254","169922","Nouvelle expérience","0","0","0","yes","2_middle.avi","4534","1280"
"Baseline_1","undefined","1","undefined","undefined","black","no","legacy","legacy","legacy","incompatible","0","2","1","uniform","0","undefined","undefined","1","3","13","0","0","3","13","NA","0","3","13","NA","0","0","0","0","3","13","NA","NA","NA","0","0","3","13","NA","NA","0","0","17","08/03/18 14:09:11","The main experiment item","yes","1MarcellBrass_FollowUp.osexp","C:\Users\Somby\Desktop\Marcell Brass Task - Follow Up","no","no","mono","no","18","no","white","no","yes","720","legacy","3539","1","13","3","C:\Users\Somby\Desktop\Marcell Brass Task - Follow Up\defaultlog.csv","legacy","Jazzy James","3.1.4","0","space","NA","space","space","NA","NA","NA","NA","NA","space","9421","NA","15031","9421","NA","NA","NA","NA","NA","3201","2","legacy","1024","2","48000","-16","experiment","0","even","43640","170492","19489","61230","50257","176431","NA","NA","43139","169992","NA","4458","51808","NA","NA","NA","NA","NA","NA","NA","NA","NA","43138","169991","NA","NA","1256","2036","1254","177931","Nouvelle expérience","0","0","0","yes","2_middle.avi","4536","1280"
"Baseline_1","undefined","0","undefined","undefined","black","no","legacy","legacy","legacy","compatible","0","1","3","uniform","0","undefined","undefined","3","3","14","0","0","3","14","NA","0","3","14","NA","0","0","0","0","3","14","NA","NA","NA","0","0","3","14","NA","NA","0","0","18","08/03/18 14:09:11","The main experiment item","yes","1MarcellBrass_FollowUp.osexp","C:\Users\Somby\Desktop\Marcell Brass Task - Follow Up","no","no","mono","no","18","no","white","no","yes","720","legacy","3582","1","14","3","C:\Users\Somby\Desktop\Marcell Brass Task - Follow Up\defaultlog.csv","legacy","Jazzy James","3.1.4","0","space","NA","space","space","NA","NA","NA","NA","NA","space","9421","NA","15031","9421","NA","NA","NA","NA","NA","3201","2","legacy","1024","2","48000","-16","experiment","0","even","43640","178484","19489","61230","50257","186785","NA","NA","43139","177984","NA","4458","51808","NA","NA","NA","NA","NA","NA","NA","NA","NA","43138","177983","NA","NA","1256","2029","1254","188285","Nouvelle expérience","0","0","0","yes","1_middle.avi","4529","1280"
"Baseline_1","undefined","0","undefined","undefined","black","no","legacy","legacy","legacy","compatible","0","1","3","uniform","0","undefined","undefined","3","3","15","0","0","3","15","NA","0","3","15","NA","0","0","0","0","3","15","NA","NA","NA","0","0","3","15","NA","NA","0","0","19","08/03/18 14:09:11","The main experiment item","yes","1MarcellBrass_FollowUp.osexp","C:\Users\Somby\Desktop\Marcell Brass Task - Follow Up","no","no","mono","no","18","no","white","no","yes","720","legacy","3430","1","15","3","C:\Users\Somby\Desktop\Marcell Brass Task - Follow Up\defaultlog.csv","legacy","Jazzy James","3.1.4","0","space","NA","space","space","NA","NA","NA","NA","NA","space","9421","NA","15031","9421","NA","NA","NA","NA","NA","3201","2","legacy","1024","2","48000","-16","experiment","0","even","43640","188981","19489","61230","50257","195580","NA","NA","43139","188480","NA","4458","51808","NA","NA","NA","NA","NA","NA","NA","NA","NA","43138","188479","NA","NA","1256","2027","1254","197080","Nouvelle expérience","0","0","0","yes","1_middle.avi","4527","1280"
"Baseline_1","undefined","1","undefined","undefined","black","no","legacy","legacy","legacy","incompatible","0","2","1","uniform","0","undefined","undefined","1","3","16","0","0","3","16","NA","0","3","16","NA","0","0","0","0","3","16","NA","NA","NA","0","0","3","16","NA","NA","0","0","20","08/03/18 14:09:11","The main experiment item","yes","1MarcellBrass_FollowUp.osexp","C:\Users\Somby\Desktop\Marcell Brass Task - Follow Up","no","no","mono","no","18","no","white","no","yes","720","legacy","3383","1","16","3","C:\Users\Somby\Desktop\Marcell Brass Task - Follow Up\defaultlog.csv","legacy","Jazzy James","3.1.4","0","space","NA","space","space","NA","NA","NA","NA","NA","space","9421","NA","15031","9421","NA","NA","NA","NA","NA","3201","2","legacy","1024","2","48000","-16","experiment","0","even","43640","197683","19489","61230","50257","203256","NA","NA","43139","197183","NA","4458","51808","NA","NA","NA","NA","NA","NA","NA","NA","NA","43138","197181","NA","NA","1256","2031","1254","204756","Nouvelle expérience","0","0","0","yes","2_middle.avi","4531","1280"
"Baseline_1","undefined","1","undefined","undefined","black","no","legacy","legacy","legacy","incompatible","0","2","1","uniform","0","undefined","undefined","1","3","17","0","0","3","17","NA","0","3","17","NA","0","0","0","0","3","17","NA","NA","NA","0","0","3","17","NA","NA","0","0","21","08/03/18 14:09:11","The main experiment item","yes","1MarcellBrass_FollowUp.osexp","C:\Users\Somby\Desktop\Marcell Brass Task - Follow Up","no","no","mono","no","18","no","white","no","yes","720","legacy","3492","1","17","3","C:\Users\Somby\Desktop\Marcell Brass Task - Follow Up\defaultlog.csv","legacy","Jazzy James","3.1.4","0","space","NA","space","space","NA","NA","NA","NA","NA","space","9421","NA","15031","9421","NA","NA","NA","NA","NA","3201","2","legacy","1024","2","48000","-16","experiment","0","even","43640","205382","19489","61230","50257","211107","NA","NA","43139","204882","NA","4458","51808","NA","NA","NA","NA","NA","NA","NA","NA","NA","43138","204880","NA","NA","1256","2040","1254","212607","Nouvelle expérience","0","0","0","yes","2_middle.avi","4540","1280"
"Baseline_1","undefined","1","undefined","undefined","black","no","legacy","legacy","legacy","compatible","0","1","1","uniform","0","undefined","undefined","1","3","18","0","0","3","18","NA","0","3","18","NA","0","0","0","0","3","18","NA","NA","NA","0","0","3","18","NA","NA","0","0","22","08/03/18 14:09:11","The main experiment item","yes","1MarcellBrass_FollowUp.osexp","C:\Users\Somby\Desktop\Marcell Brass Task - Follow Up","no","no","mono","no","18","no","white","no","yes","720","legacy","2927","1","18","3","C:\Users\Somby\Desktop\Marcell Brass Task - Follow Up\defaultlog.csv","legacy","Jazzy James","3.1.4","0","space","NA","space","space","NA","NA","NA","NA","NA","space","9421","NA","15031","9421","NA","NA","NA","NA","NA","3201","2","legacy","1024","2","48000","-16","experiment","0","even","43640","213187","19489","61230","50257","261069","NA","NA","43139","212687","NA","4458","51808","NA","NA","NA","NA","NA","NA","NA","NA","NA","43138","212686","NA","NA","1256","2024","1254","262569","Nouvelle expérience","0","0","0","yes","1_index.avi","4524","1280"
"Baseline_1","undefined","0","undefined","undefined","black","no","legacy","legacy","legacy","compatible","0","1","3","uniform","0","undefined","undefined","3","3","19","0","0","3","19","NA","0","3","19","NA","0","0","0","0","3","19","NA","NA","NA","0","0","3","19","NA","NA","0","0","23","08/03/18 14:09:11","The main experiment item","yes","1MarcellBrass_FollowUp.osexp","C:\Users\Somby\Desktop\Marcell Brass Task - Follow Up","no","no","mono","no","18","no","white","no","yes","720","legacy","3629","1","19","3","C:\Users\Somby\Desktop\Marcell Brass Task - Follow Up\defaultlog.csv","legacy","Jazzy James","3.1.4","0","space","NA","space","space","NA","NA","NA","NA","NA","space","9421","NA","15031","9421","NA","NA","NA","NA","NA","3201","2","legacy","1024","2","48000","-16","experiment","0","even","43640","263147","19489","61230","50257","269741","NA","NA","43139","262647","NA","4458","51808","NA","NA","NA","NA","NA","NA","NA","NA","NA","43138","262645","NA","NA","1256","2026","1254","271241","Nouvelle expérience","0","0","0","yes","1_middle.avi","4526","1280"
"Baseline_1","undefined","0","undefined","undefined","black","no","legacy","legacy","legacy","compatible","0","1","3","uniform","0","undefined","undefined","3","3","20","0","0","3","20","NA","0","3","20","NA","0","0","0","0","3","20","NA","NA","NA","0","0","3","20","NA","NA","0","0","24","08/03/18 14:09:11","The main experiment item","yes","1MarcellBrass_FollowUp.osexp","C:\Users\Somby\Desktop\Marcell Brass Task - Follow Up","no","no","mono","no","18","no","white","no","yes","720","legacy","3281","1","20","3","C:\Users\Somby\Desktop\Marcell Brass Task - Follow Up\defaultlog.csv","legacy","Jazzy James","3.1.4","0","space","NA","space","space","NA","NA","NA","NA","NA","space","9421","NA","15031","9421","NA","NA","NA","NA","NA","3201","2","legacy","1024","2","48000","-16","experiment","0","even","43640","271830","19489","61230","50257","278438","NA","NA","43139","271330","NA","4458","51808","NA","NA","NA","NA","NA","NA","NA","NA","NA","43138","271328","NA","NA","1256","2028","1254","279938","Nouvelle expérience","0","0","0","yes","1_middle.avi","4528","1280"
"Baseline_1","undefined","0","undefined","undefined","black","no","legacy","legacy","legacy","incompatible","0","2","1","uniform","0","undefined","undefined","1","3","21","0","0","3","21","NA","0","3","21","NA","0","0","0","0","3","21","NA","NA","NA","0","0","3","21","NA","NA","0","0","25","08/03/18 14:09:11","The main experiment item","yes","1MarcellBrass_FollowUp.osexp","C:\Users\Somby\Desktop\Marcell Brass Task - Follow Up","no","no","mono","no","18","no","white","no","yes","720","legacy","3891","3","21","3","C:\Users\Somby\Desktop\Marcell Brass Task - Follow Up\defaultlog.csv","legacy","Jazzy James","3.1.4","0","space","NA","space","space","NA","NA","NA","NA","NA","space","9421","NA","15031","9421","NA","NA","NA","NA","NA","3201","2","legacy","1024","2","48000","-16","experiment","0","even","43640","280532","19489","61230","50257","286170","NA","NA","43139","280032","NA","4458","51808","NA","NA","NA","NA","NA","NA","NA","NA","NA","43138","280030","NA","NA","1256","2038","1254","287670","Nouvelle expérience","0","0","0","yes","2_middle.avi","4538","1280"
"Baseline_1","undefined","0","undefined","undefined","black","no","legacy","legacy","legacy","compatible","0","1","3","uniform","0","undefined","undefined","3","3","22","0","0","3","22","NA","0","3","22","NA","0","0","0","0","3","22","NA","NA","NA","0","0","3","22","NA","NA","0","0","26","08/03/18 14:09:11","The main experiment item","yes","1MarcellBrass_FollowUp.osexp","C:\Users\Somby\Desktop\Marcell Brass Task - Follow Up","no","no","mono","no","18","no","white","no","yes","720","legacy","2241","1","22","3","C:\Users\Somby\Desktop\Marcell Brass Task - Follow Up\defaultlog.csv","legacy","Jazzy James","3.1.4","0","space","NA","space","space","NA","NA","NA","NA","NA","space","9421","NA","15031","9421","NA","NA","NA","NA","NA","3201","2","legacy","1024","2","48000","-16","experiment","0","even","43640","288269","19489","61230","50257","299009","NA","NA","43139","287769","NA","4458","51808","NA","NA","NA","NA","NA","NA","NA","NA","NA","43138","287767","NA","NA","1256","2038","1254","300509","Nouvelle expérience","0","0","0","yes","1_middle.avi","4538","1280"
"Baseline_1","undefined","0","undefined","undefined","black","no","legacy","legacy","legacy","compatible","0","1","3","uniform","0","undefined","undefined","3","3","23","0","0","3","23","NA","0","3","23","NA","0","0","0","0","3","23","NA","NA","NA","0","0","3","23","NA","NA","0","0","27","08/03/18 14:09:11","The main experiment item","yes","1MarcellBrass_FollowUp.osexp","C:\Users\Somby\Desktop\Marcell Brass Task - Follow Up","no","no","mono","no","18","no","white","no","yes","720","legacy","4091","1","23","3","C:\Users\Somby\Desktop\Marcell Brass Task - Follow Up\defaultlog.csv","legacy","Jazzy James","3.1.4","0","space","NA","space","space","NA","NA","NA","NA","NA","space","9421","NA","15031","9421","NA","NA","NA","NA","NA","3201","2","legacy","1024","2","48000","-16","experiment","0","even","43640","301065","19489","61230","50257","306690","NA","NA","43139","300565","NA","4458","51808","NA","NA","NA","NA","NA","NA","NA","NA","NA","43138","300564","NA","NA","1256","2038","1254","308190","Nouvelle expérience","0","0","0","yes","1_middle.avi","4538","1280"
"Baseline_1","undefined","0","undefined","undefined","black","no","legacy","legacy","legacy","compatible","0","1","1","uniform","0","undefined","undefined","1","3","24","0","0","3","24","NA","0","3","24","NA","0","0","0","0","3","24","NA","NA","NA","0","0","3","24","NA","NA","0","0","28","08/03/18 14:09:11","The main experiment item","yes","1MarcellBrass_FollowUp.osexp","C:\Users\Somby\Desktop\Marcell Brass Task - Follow Up","no","no","mono","no","18","no","white","no","yes","720","legacy","2032","3","24","3","C:\Users\Somby\Desktop\Marcell Brass Task - Follow Up\defaultlog.csv","legacy","Jazzy James","3.1.4","0","space","NA","space","space","NA","NA","NA","NA","NA","space","9421","NA","15031","9421","NA","NA","NA","NA","NA","3201","2","legacy","1024","2","48000","-16","experiment","0","even","43640","308765","19489","61230","50257","315368","NA","NA","43139","308265","NA","4458","51808","NA","NA","NA","NA","NA","NA","NA","NA","NA","43138","308264","NA","NA","1256","2027","1254","316868","Nouvelle expérience","0","0","0","yes","1_index.avi","4527","1280"
"Baseline_1","undefined","1","undefined","undefined","black","no","legacy","legacy","legacy","compatible","0","1","3","uniform","0","undefined","undefined","3","3","25","0","0","3","25","NA","0","3","25","NA","0","0","0","0","3","25","NA","NA","NA","0","0","3","25","NA","NA","0","0","29","08/03/18 14:09:11","The main experiment item","yes","1MarcellBrass_FollowUp.osexp","C:\Users\Somby\Desktop\Marcell Brass Task - Follow Up","no","no","mono","no","18","no","white","no","yes","720","legacy","3033","3","25","3","C:\Users\Somby\Desktop\Marcell Brass Task - Follow Up\defaultlog.csv","legacy","Jazzy James","3.1.4","0","space","NA","space","space","NA","NA","NA","NA","NA","space","9421","NA","15031","9421","NA","NA","NA","NA","NA","3201","2","legacy","1024","2","48000","-16","experiment","0","even","43640","317468","19489","61230","50257","324727","NA","NA","43139","316968","NA","4458","51808","NA","NA","NA","NA","NA","NA","NA","NA","NA","43138","316966","NA","NA","1256","2030","1254","326227","Nouvelle expérience","0","0","0","yes","1_middle.avi","4530","1280"
"Baseline_1","undefined","0","undefined","undefined","black","no","legacy","legacy","legacy","compatible","0","1","3","uniform","0","undefined","undefined","3","3","26","0","0","3","26","NA","0","3","26","NA","0","0","0","0","3","26","NA","NA","NA","0","0","3","26","NA","NA","0","0","30","08/03/18 14:09:11","The main experiment item","yes","1MarcellBrass_FollowUp.osexp","C:\Users\Somby\Desktop\Marcell Brass Task - Follow Up","no","no","mono","no","18","no","white","no","yes","720","legacy","3181","1","26","3","C:\Users\Somby\Desktop\Marcell Brass Task - Follow Up\defaultlog.csv","legacy","Jazzy James","3.1.4","0","space","NA","space","space","NA","NA","NA","NA","NA","space","9421","NA","15031","9421","NA","NA","NA","NA","NA","3201","2","legacy","1024","2","48000","-16","experiment","0","even","43640","326815","19489","61230","50257","335736","NA","NA","43139","326315","NA","4458","51808","NA","NA","NA","NA","NA","NA","NA","NA","NA","43138","326313","NA","NA","1256","2028","1254","337236","Nouvelle expérience","0","0","0","yes","1_middle.avi","4528","1280"
"Baseline_1","undefined","0","undefined","undefined","black","no","legacy","legacy","legacy","incompatible","0","2","1","uniform","0","undefined","undefined","1","3","27","0","0","3","27","NA","0","3","27","NA","0","0","0","0","3","27","NA","NA","NA","0","0","3","27","NA","NA","0","0","31","08/03/18 14:09:11","The main experiment item","yes","1MarcellBrass_FollowUp.osexp","C:\Users\Somby\Desktop\Marcell Brass Task - Follow Up","no","no","mono","no","18","no","white","no","yes","720","legacy","2032","3","27","3","C:\Users\Somby\Desktop\Marcell Brass Task - Follow Up\defaultlog.csv","legacy","Jazzy James","3.1.4","0","space","NA","space","space","NA","NA","NA","NA","NA","space","9421","NA","15031","9421","NA","NA","NA","NA","NA","3201","2","legacy","1024","2","48000","-16","experiment","0","even","43640","337806","19489","61230","50257","343479","NA","NA","43139","337306","NA","4458","51808","NA","NA","NA","NA","NA","NA","NA","NA","NA","43138","337304","NA","NA","1256","2027","1254","344979","Nouvelle expérience","0","0","0","yes","2_middle.avi","4527","1280"
"Baseline_1","undefined","1","undefined","undefined","black","no","legacy","legacy","legacy","incompatible","0","2","3","uniform","0","undefined","undefined","3","3","28","0","0","3","28","NA","0","3","28","NA","0","0","0","0","3","28","NA","NA","NA","0","0","3","28","NA","NA","0","0","32","08/03/18 14:09:11","The main experiment item","yes","1MarcellBrass_FollowUp.osexp","C:\Users\Somby\Desktop\Marcell Brass Task - Follow Up","no","no","mono","no","18","no","white","no","yes","720","legacy","3281","3","28","3","C:\Users\Somby\Desktop\Marcell Brass Task - Follow Up\defaultlog.csv","legacy","Jazzy James","3.1.4","0","space","NA","space","space","NA","NA","NA","NA","NA","space","9421","NA","15031","9421","NA","NA","NA","NA","NA","3201","2","legacy","1024","2","48000","-16","experiment","0","even","43640","345570","19489","61230","50257","393937","NA","NA","43139","345070","NA","4458","51808","NA","NA","NA","NA","NA","NA","NA","NA","NA","43138","345068","NA","NA","1256","2028","1254","395437","Nouvelle expérience","0","0","0","yes","2_index.avi","4528","1280"
"Baseline_1","undefined","1","undefined","undefined","black","no","legacy","legacy","legacy","compatible","0","1","1","uniform","0","undefined","undefined","1","3","29","0","0","3","29","NA","0","3","29","NA","0","0","0","0","3","29","NA","NA","NA","0","0","3","29","NA","NA","0","0","33","08/03/18 14:09:11","The main experiment item","yes","1MarcellBrass_FollowUp.osexp","C:\Users\Somby\Desktop\Marcell Brass Task - Follow Up","no","no","mono","no","18","no","white","no","yes","720","legacy","3079","1","29","3","C:\Users\Somby\Desktop\Marcell Brass Task - Follow Up\defaultlog.csv","legacy","Jazzy James","3.1.4","0","space","NA","space","space","NA","NA","NA","NA","NA","space","9421","NA","15031","9421","NA","NA","NA","NA","NA","3201","2","legacy","1024","2","48000","-16","experiment","0","even","43640","396033","19489","61230","50257","402880","NA","NA","43139","395533","NA","4458","51808","NA","NA","NA","NA","NA","NA","NA","NA","NA","43138","395532","NA","NA","1256","2025","1254","404380","Nouvelle expérience","0","0","0","yes","1_index.avi","4525","1280"
"Baseline_1","undefined","0","undefined","undefined","black","no","legacy","legacy","legacy","compatible","0","1","3","uniform","0","undefined","undefined","3","3","30","0","0","3","30","NA","0","3","30","NA","0","0","0","0","3","30","NA","NA","NA","0","0","3","30","NA","NA","0","0","34","08/03/18 14:09:11","The main experiment item","yes","1MarcellBrass_FollowUp.osexp","C:\Users\Somby\Desktop\Marcell Brass Task - Follow Up","no","no","mono","no","18","no","white","no","yes","720","legacy","3329","1","30","3","C:\Users\Somby\Desktop\Marcell Brass Task - Follow Up\defaultlog.csv","legacy","Jazzy James","3.1.4","0","space","NA","space","space","NA","NA","NA","NA","NA","space","9421","NA","15031","9421","NA","NA","NA","NA","NA","3201","2","legacy","1024","2","48000","-16","experiment","0","even","43640","404949","19489","61230","50257","411549","NA","NA","43139","404449","NA","4458","51808","NA","NA","NA","NA","NA","NA","NA","NA","NA","43138","404447","NA","NA","1256","2026","1254","413049","Nouvelle expérience","0","0","0","yes","1_middle.avi","4526","1280"
"Baseline_1","undefined","1","undefined","undefined","black","no","legacy","legacy","legacy","incompatible","0","2","3","uniform","0","undefined","undefined","3","3","31","0","0","3","31","NA","0","3","31","NA","0","0","0","0","3","31","NA","NA","NA","0","0","3","31","NA","NA","0","0","35","08/03/18 14:09:11","The main experiment item","yes","1MarcellBrass_FollowUp.osexp","C:\Users\Somby\Desktop\Marcell Brass Task - Follow Up","no","no","mono","no","18","no","white","no","yes","720","legacy","3187","3","31","3","C:\Users\Somby\Desktop\Marcell Brass Task - Follow Up\defaultlog.csv","legacy","Jazzy James","3.1.4","0","space","NA","space","space","NA","NA","NA","NA","NA","space","9421","NA","15031","9421","NA","NA","NA","NA","NA","3201","2","legacy","1024","2","48000","-16","experiment","0","even","43640","413640","19489","61230","50257","419222","NA","NA","43139","413140","NA","4458","51808","NA","NA","NA","NA","NA","NA","NA","NA","NA","43138","413139","NA","NA","1256","2034","1254","420722","Nouvelle expérience","0","0","0","yes","2_index.avi","4534","1280"
"Baseline_1","undefined","1","undefined","undefined","black","no","legacy","legacy","legacy","incompatible","0","2","1","uniform","0","undefined","undefined","1","3","32","0","0","3","32","NA","0","3","32","NA","0","0","0","0","3","32","NA","NA","NA","0","0","3","32","NA","NA","0","0","36","08/03/18 14:09:11","The main experiment item","yes","1MarcellBrass_FollowUp.osexp","C:\Users\Somby\Desktop\Marcell Brass Task - Follow Up","no","no","mono","no","18","no","white","no","yes","720","legacy","3341","1","32","3","C:\Users\Somby\Desktop\Marcell Brass Task - Follow Up\defaultlog.csv","legacy","Jazzy James","3.1.4","0","space","NA","space","space","NA","NA","NA","NA","NA","space","9421","NA","15031","9421","NA","NA","NA","NA","NA","3201","2","legacy","1024","2","48000","-16","experiment","0","even","43640","421414","19489","61230","50257","427890","NA","NA","43139","420914","NA","4458","51808","NA","NA","NA","NA","NA","NA","NA","NA","NA","43138","420913","NA","NA","1256","2038","1254","429390","Nouvelle expérience","0","0","0","yes","2_middle.avi","4538","1280"
"Baseline_1","undefined","0","undefined","undefined","black","no","legacy","legacy","legacy","incompatible","0","2","1","uniform","0","undefined","undefined","1","3","33","0","0","3","33","NA","0","3","33","NA","0","0","0","0","3","33","NA","NA","NA","0","0","3","33","NA","NA","0","0","37","08/03/18 14:09:11","The main experiment item","yes","1MarcellBrass_FollowUp.osexp","C:\Users\Somby\Desktop\Marcell Brass Task - Follow Up","no","no","mono","no","18","no","white","no","yes","720","legacy","4442","3","33","3","C:\Users\Somby\Desktop\Marcell Brass Task - Follow Up\defaultlog.csv","legacy","Jazzy James","3.1.4","0","space","NA","space","space","NA","NA","NA","NA","NA","space","9421","NA","15031","9421","NA","NA","NA","NA","NA","3201","2","legacy","1024","2","48000","-16","experiment","0","even","43640","430147","19489","61230","50257","435748","NA","NA","43139","429646","NA","4458","51808","NA","NA","NA","NA","NA","NA","NA","NA","NA","43138","429645","NA","NA","1256","2038","1254","437248","Nouvelle expérience","0","0","0","yes","2_middle.avi","4538","1280"
"Baseline_1","undefined","0","undefined","undefined","black","no","legacy","legacy","legacy","compatible","0","1","1","uniform","0","undefined","undefined","1","3","34","0","0","3","34","NA","0","3","34","NA","0","0","0","0","3","34","NA","NA","NA","0","0","3","34","NA","NA","0","0","38","08/03/18 14:09:11","The main experiment item","yes","1MarcellBrass_FollowUp.osexp","C:\Users\Somby\Desktop\Marcell Brass Task - Follow Up","no","no","mono","no","18","no","white","no","yes","720","legacy","3237","1","34","3","C:\Users\Somby\Desktop\Marcell Brass Task - Follow Up\defaultlog.csv","legacy","Jazzy James","3.1.4","0","space","NA","space","space","NA","NA","NA","NA","NA","space","9421","NA","15031","9421","NA","NA","NA","NA","NA","3201","2","legacy","1024","2","48000","-16","experiment","0","even","43640","437830","19489","61230","50257","445501","NA","NA","43139","437330","NA","4458","51808","NA","NA","NA","NA","NA","NA","NA","NA","NA","43138","437329","NA","NA","1256","2033","1254","447001","Nouvelle expérience","0","0","0","yes","1_index.avi","4533","1280"
"Baseline_1","undefined","0","undefined","undefined","black","no","legacy","legacy","legacy","compatible","0","1","1","uniform","0","undefined","undefined","1","3","35","0","0","3","35","NA","0","3","35","NA","0","0","0","0","3","35","NA","NA","NA","0","0","3","35","NA","NA","0","0","39","08/03/18 14:09:11","The main experiment item","yes","1MarcellBrass_FollowUp.osexp","C:\Users\Somby\Desktop\Marcell Brass Task - Follow Up","no","no","mono","no","18","no","white","no","yes","720","legacy","3481","3","35","3","C:\Users\Somby\Desktop\Marcell Brass Task - Follow Up\defaultlog.csv","legacy","Jazzy James","3.1.4","0","space","NA","space","space","NA","NA","NA","NA","NA","space","9421","NA","15031","9421","NA","NA","NA","NA","NA","3201","2","legacy","1024","2","48000","-16","experiment","0","even","43640","447580","19489","61230","50257","454180","NA","NA","43139","447080","NA","4458","51808","NA","NA","NA","NA","NA","NA","NA","NA","NA","43138","447079","NA","NA","1256","2028","1254","455680","Nouvelle expérience","0","0","0","yes","1_index.avi","4528","1280"
"Baseline_1","undefined","0","undefined","undefined","black","no","legacy","legacy","legacy","incompatible","0","2","1","uniform","0","undefined","undefined","1","3","36","0","0","3","36","NA","0","3","36","NA","0","0","0","0","3","36","NA","NA","NA","0","0","3","36","NA","NA","0","0","40","08/03/18 14:09:11","The main experiment item","yes","1MarcellBrass_FollowUp.osexp","C:\Users\Somby\Desktop\Marcell Brass Task - Follow Up","no","no","mono","no","18","no","white","no","yes","720","legacy","2034","1","36","3","C:\Users\Somby\Desktop\Marcell Brass Task - Follow Up\defaultlog.csv","legacy","Jazzy James","3.1.4","0","space","NA","space","space","NA","NA","NA","NA","NA","space","9421","NA","15031","9421","NA","NA","NA","NA","NA","3201","2","legacy","1024","2","48000","-16","experiment","0","even","43640","456269","19489","61230","50257","465874","NA","NA","43139","455769","NA","4458","51808","NA","NA","NA","NA","NA","NA","NA","NA","NA","43138","455767","NA","NA","1256","2030","1254","467374","Nouvelle expérience","0","0","0","yes","2_middle.avi","4530","1280"
"Baseline_1","undefined","1","undefined","undefined","black","no","legacy","legacy","legacy","compatible","0","1","3","uniform","0","undefined","undefined","3","3","37","0","0","3","37","NA","0","3","37","NA","0","0","0","0","3","37","NA","NA","NA","0","0","3","37","NA","NA","0","0","41","08/03/18 14:09:11","The main experiment item","yes","1MarcellBrass_FollowUp.osexp","C:\Users\Somby\Desktop\Marcell Brass Task - Follow Up","no","no","mono","no","18","no","white","no","yes","720","legacy","3433","3","37","3","C:\Users\Somby\Desktop\Marcell Brass Task - Follow Up\defaultlog.csv","legacy","Jazzy James","3.1.4","0","space","NA","space","space","NA","NA","NA","NA","NA","space","9421","NA","15031","9421","NA","NA","NA","NA","NA","3201","2","legacy","1024","2","48000","-16","experiment","0","even","43640","467968","19489","61230","50257","476194","NA","NA","43139","467468","NA","4458","51808","NA","NA","NA","NA","NA","NA","NA","NA","NA","43138","467467","NA","NA","1256","2030","1254","477694","Nouvelle expérience","0","0","0","yes","1_middle.avi","4530","1280"
"Baseline_1","undefined","0","undefined","undefined","black","no","legacy","legacy","legacy","compatible","0","1","3","uniform","0","undefined","undefined","3","3","38","0","0","3","38","NA","0","3","38","NA","0","0","0","0","3","38","NA","NA","NA","0","0","3","38","NA","NA","0","0","42","08/03/18 14:09:11","The main experiment item","yes","1MarcellBrass_FollowUp.osexp","C:\Users\Somby\Desktop\Marcell Brass Task - Follow Up","no","no","mono","no","18","no","white","no","yes","720","legacy","3979","1","38","3","C:\Users\Somby\Desktop\Marcell Brass Task - Follow Up\defaultlog.csv","legacy","Jazzy James","3.1.4","0","space","NA","space","space","NA","NA","NA","NA","NA","space","9421","NA","15031","9421","NA","NA","NA","NA","NA","3201","2","legacy","1024","2","48000","-16","experiment","0","even","43640","478270","19489","61230","50257","485232","NA","NA","43139","477770","NA","4458","51808","NA","NA","NA","NA","NA","NA","NA","NA","NA","43138","477769","NA","NA","1256","2025","1254","486732","Nouvelle expérience","0","0","0","yes","1_middle.avi","4525","1280"
"Baseline_1","undefined","0","undefined","undefined","black","no","legacy","legacy","legacy","compatible","0","1","1","uniform","0","undefined","undefined","1","3","39","0","0","3","39","NA","0","3","39","NA","0","0","0","0","3","39","NA","NA","NA","0","0","3","39","NA","NA","0","0","43","08/03/18 14:09:11","The main experiment item","yes","1MarcellBrass_FollowUp.osexp","C:\Users\Somby\Desktop\Marcell Brass Task - Follow Up","no","no","mono","no","18","no","white","no","yes","720","legacy","2039","3","39","3","C:\Users\Somby\Desktop\Marcell Brass Task - Follow Up\defaultlog.csv","legacy","Jazzy James","3.1.4","0","space","NA","space","space","NA","NA","NA","NA","NA","space","9421","NA","15031","9421","NA","NA","NA","NA","NA","3201","2","legacy","1024","2","48000","-16","experiment","0","even","43640","487326","19489","61230","50257","494311","NA","NA","43139","486826","NA","4458","51808","NA","NA","NA","NA","NA","NA","NA","NA","NA","43138","486824","NA","NA","1256","2035","1254","495811","Nouvelle expérience","0","0","0","yes","1_index.avi","4535","1280"
"Baseline_1","undefined","1","undefined","undefined","black","no","legacy","legacy","legacy","compatible","0","1","1","uniform","0","undefined","undefined","1","3","40","0","0","3","40","NA","0","3","40","NA","0","0","0","0","3","40","NA","NA","NA","0","0","3","40","NA","NA","0","0","44","08/03/18 14:09:11","The main experiment item","yes","1MarcellBrass_FollowUp.osexp","C:\Users\Somby\Desktop\Marcell Brass Task - Follow Up","no","no","mono","no","18","no","white","no","yes","720","legacy","3934","1","40","3","C:\Users\Somby\Desktop\Marcell Brass Task - Follow Up\defaultlog.csv","legacy","Jazzy James","3.1.4","0","space","NA","space","space","NA","NA","NA","NA","NA","space","9421","NA","15031","9421","NA","NA","NA","NA","NA","3201","2","legacy","1024","2","48000","-16","experiment","0","even","43640","496385","19489","61230","50257","501964","NA","NA","43139","495885","NA","4458","51808","NA","NA","NA","NA","NA","NA","NA","NA","NA","43138","495884","NA","NA","1256","2033","1254","503464","Nouvelle expérience","0","0","0","yes","1_index.avi","4533","1280"
"Baseline_1","undefined","0","undefined","undefined","black","no","legacy","legacy","legacy","incompatible","0","2","3","uniform","0","undefined","undefined","3","3","41","0","0","3","41","NA","0","3","41","NA","0","0","0","0","3","41","NA","NA","NA","0","0","3","41","NA","NA","0","0","45","08/03/18 14:09:11","The main experiment item","yes","1MarcellBrass_FollowUp.osexp","C:\Users\Somby\Desktop\Marcell Brass Task - Follow Up","no","no","mono","no","18","no","white","no","yes","720","legacy","3090","3","41","3","C:\Users\Somby\Desktop\Marcell Brass Task - Follow Up\defaultlog.csv","legacy","Jazzy James","3.1.4","0","space","NA","space","space","NA","NA","NA","NA","NA","space","9421","NA","15031","9421","NA","NA","NA","NA","NA","3201","2","legacy","1024","2","48000","-16","experiment","0","even","43640","504390","19489","61230","50257","510152","NA","NA","43139","503890","NA","4458","51808","NA","NA","NA","NA","NA","NA","NA","NA","NA","43138","503889","NA","NA","1256","2036","1254","511652","Nouvelle expérience","0","0","0","yes","2_index.avi","4536","1280"
"Baseline_1","undefined","0","undefined","undefined","black","no","legacy","legacy","legacy","incompatible","0","2","1","uniform","0","undefined","undefined","1","3","42","0","0","3","42","NA","0","3","42","NA","0","0","0","0","3","42","NA","NA","NA","0","0","3","42","NA","NA","0","0","46","08/03/18 14:09:11","The main experiment item","yes","1MarcellBrass_FollowUp.osexp","C:\Users\Somby\Desktop\Marcell Brass Task - Follow Up","no","no","mono","no","18","no","white","no","yes","720","legacy","2992","3","42","3","C:\Users\Somby\Desktop\Marcell Brass Task - Follow Up\defaultlog.csv","legacy","Jazzy James","3.1.4","0","space","NA","space","space","NA","NA","NA","NA","NA","space","9421","NA","15031","9421","NA","NA","NA","NA","NA","3201","2","legacy","1024","2","48000","-16","experiment","0","even","43640","512348","19489","61230","50257","522867","NA","NA","43139","511848","NA","4458","51808","NA","NA","NA","NA","NA","NA","NA","NA","NA","43138","511847","NA","NA","1256","2039","1254","524367","Nouvelle expérience","0","0","0","yes","2_middle.avi","4539","1280"
"Baseline_1","undefined","1","undefined","undefined","black","no","legacy","legacy","legacy","incompatible","0","2","1","uniform","0","undefined","undefined","1","3","43","0","0","3","43","NA","0","3","43","NA","0","0","0","0","3","43","NA","NA","NA","0","0","3","43","NA","NA","0","0","47","08/03/18 14:09:11","The main experiment item","yes","1MarcellBrass_FollowUp.osexp","C:\Users\Somby\Desktop\Marcell Brass Task - Follow Up","no","no","mono","no","18","no","white","no","yes","720","legacy","3781","1","43","3","C:\Users\Somby\Desktop\Marcell Brass Task - Follow Up\defaultlog.csv","legacy","Jazzy James","3.1.4","0","space","NA","space","space","NA","NA","NA","NA","NA","space","9421","NA","15031","9421","NA","NA","NA","NA","NA","3201","2","legacy","1024","2","48000","-16","experiment","0","even","43640","526390","19489","61230","50257","534576","NA","NA","43139","525890","NA","4458","51808","NA","NA","NA","NA","NA","NA","NA","NA","NA","43138","525888","NA","NA","1256","2028","1254","536076","Nouvelle expérience","0","0","0","yes","2_middle.avi","4528","1280"
"Baseline_1","undefined","1","undefined","undefined","black","no","legacy","legacy","legacy","incompatible","0","2","3","uniform","0","undefined","undefined","3","3","44","0","0","3","44","NA","0","3","44","NA","0","0","0","0","3","44","NA","NA","NA","0","0","3","44","NA","NA","0","0","48","08/03/18 14:09:11","The main experiment item","yes","1MarcellBrass_FollowUp.osexp","C:\Users\Somby\Desktop\Marcell Brass Task - Follow Up","no","no","mono","no","18","no","white","no","yes","720","legacy","4241","3","44","3","C:\Users\Somby\Desktop\Marcell Brass Task - Follow Up\defaultlog.csv","legacy","Jazzy James","3.1.4","0","space","NA","space","space","NA","NA","NA","NA","NA","space","9421","NA","15031","9421","NA","NA","NA","NA","NA","3201","2","legacy","1024","2","48000","-16","experiment","0","even","43640","536726","19489","61230","50257","543899","NA","NA","43139","536226","NA","4458","51808","NA","NA","NA","NA","NA","NA","NA","NA","NA","43138","536225","NA","NA","1256","2039","1254","545399","Nouvelle expérience","0","0","0","yes","2_index.avi","4539","1280"
"Baseline_1","undefined","0","undefined","undefined","black","no","legacy","legacy","legacy","incompatible","0","2","1","uniform","0","undefined","undefined","1","3","45","0","0","3","45","NA","0","3","45","NA","0","0","0","0","3","45","NA","NA","NA","0","0","3","45","NA","NA","0","0","49","08/03/18 14:09:11","The main experiment item","yes","1MarcellBrass_FollowUp.osexp","C:\Users\Somby\Desktop\Marcell Brass Task - Follow Up","no","no","mono","no","18","no","white","no","yes","720","legacy","3282","1","45","3","C:\Users\Somby\Desktop\Marcell Brass Task - Follow Up\defaultlog.csv","legacy","Jazzy James","3.1.4","0","space","NA","space","space","NA","NA","NA","NA","NA","space","9421","NA","15031","9421","NA","NA","NA","NA","NA","3201","2","legacy","1024","2","48000","-16","experiment","0","even","43640","545982","19489","61230","50257","551857","NA","NA","43139","545482","NA","4458","51808","NA","NA","NA","NA","NA","NA","NA","NA","NA","43138","545480","NA","NA","1256","2029","1254","553357","Nouvelle expérience","0","0","0","yes","2_middle.avi","4529","1280"
"Baseline_1","undefined","1","undefined","undefined","black","no","legacy","legacy","legacy","incompatible","0","2","3","uniform","0","undefined","undefined","3","3","46","0","0","3","46","NA","0","3","46","NA","0","0","0","0","3","46","NA","NA","NA","0","0","3","46","NA","NA","0","0","50","08/03/18 14:09:11","The main experiment item","yes","1MarcellBrass_FollowUp.osexp","C:\Users\Somby\Desktop\Marcell Brass Task - Follow Up","no","no","mono","no","18","no","white","no","yes","720","legacy","3481","3","46","3","C:\Users\Somby\Desktop\Marcell Brass Task - Follow Up\defaultlog.csv","legacy","Jazzy James","3.1.4","0","space","NA","space","space","NA","NA","NA","NA","NA","space","9421","NA","15031","9421","NA","NA","NA","NA","NA","3201","2","legacy","1024","2","48000","-16","experiment","0","even","43640","553950","19489","61230","50257","560558","NA","NA","43139","553450","NA","4458","51808","NA","NA","NA","NA","NA","NA","NA","NA","NA","43138","553449","NA","NA","1256","2028","1254","562058","Nouvelle expérience","0","0","0","yes","2_index.avi","4528","1280"
"Baseline_1","undefined","0","undefined","undefined","black","no","legacy","legacy","legacy","incompatible","0","2","1","uniform","0","undefined","undefined","1","3","47","0","0","3","47","NA","0","3","47","NA","0","0","0","0","3","47","NA","NA","NA","0","0","3","47","NA","NA","0","0","51","08/03/18 14:09:11","The main experiment item","yes","1MarcellBrass_FollowUp.osexp","C:\Users\Somby\Desktop\Marcell Brass Task - Follow Up","no","no","mono","no","18","no","white","no","yes","720","legacy","2044","3","47","3","C:\Users\Somby\Desktop\Marcell Brass Task - Follow Up\defaultlog.csv","legacy","Jazzy James","3.1.4","0","space","NA","space","space","NA","NA","NA","NA","NA","space","9421","NA","15031","9421","NA","NA","NA","NA","NA","3201","2","legacy","1024","2","48000","-16","experiment","0","even","43640","562652","19489","61230","50257","571857","NA","NA","43139","562152","NA","4458","51808","NA","NA","NA","NA","NA","NA","NA","NA","NA","43138","562151","NA","NA","1256","2040","1254","573357","Nouvelle expérience","0","0","0","yes","2_middle.avi","4540","1280"
"Baseline_1","undefined","1","undefined","undefined","black","no","legacy","legacy","legacy","incompatible","0","2","3","uniform","0","undefined","undefined","3","3","48","0","0","3","48","NA","0","3","48","NA","0","0","0","0","3","48","NA","NA","NA","0","0","3","48","NA","NA","0","0","52","08/03/18 14:09:11","The main experiment item","yes","1MarcellBrass_FollowUp.osexp","C:\Users\Somby\Desktop\Marcell Brass Task - Follow Up","no","no","mono","no","18","no","white","no","yes","720","legacy","3891","3","48","3","C:\Users\Somby\Desktop\Marcell Brass Task - Follow Up\defaultlog.csv","legacy","Jazzy James","3.1.4","0","space","NA","space","space","NA","NA","NA","NA","NA","space","9421","NA","15031","9421","NA","NA","NA","NA","NA","3201","2","legacy","1024","2","48000","-16","experiment","0","even","43640","573938","19489","61230","50257","580499","NA","NA","43139","573438","NA","4458","51808","NA","NA","NA","NA","NA","NA","NA","NA","NA","43138","573437","NA","NA","1256","2038","1254","581999","Nouvelle expérience","0","0","0","yes","2_index.avi","4538","1280"
"Baseline_1","undefined","1","undefined","undefined","black","no","legacy","legacy","legacy","compatible","0","1","1","uniform","0","undefined","undefined","1","3","49","0","0","3","49","NA","0","3","49","NA","0","0","0","0","3","49","NA","NA","NA","0","0","3","49","NA","NA","0","0","53","08/03/18 14:09:11","The main experiment item","yes","1MarcellBrass_FollowUp.osexp","C:\Users\Somby\Desktop\Marcell Brass Task - Follow Up","no","no","mono","no","18","no","white","no","yes","720","legacy","3976","1","49","3","C:\Users\Somby\Desktop\Marcell Brass Task - Follow Up\defaultlog.csv","legacy","Jazzy James","3.1.4","0","space","NA","space","space","NA","NA","NA","NA","NA","space","9421","NA","15031","9421","NA","NA","NA","NA","NA","3201","2","legacy","1024","2","48000","-16","experiment","0","even","43640","582581","19489","61230","50257","590259","NA","NA","43139","582081","NA","4458","51808","NA","NA","NA","NA","NA","NA","NA","NA","NA","43138","582079","NA","NA","1256","2023","1254","591759","Nouvelle expérience","0","0","0","yes","1_index.avi","4523","1280"
"Baseline_1","undefined","1","undefined","undefined","black","no","legacy","legacy","legacy","incompatible","0","2","3","uniform","0","undefined","undefined","3","3","50","0","0","3","50","NA","0","3","50","NA","0","0","0","0","3","50","NA","NA","NA","0","0","3","50","NA","NA","0","0","54","08/03/18 14:09:11","The main experiment item","yes","1MarcellBrass_FollowUp.osexp","C:\Users\Somby\Desktop\Marcell Brass Task - Follow Up","no","no","mono","no","18","no","white","no","yes","720","legacy","3584","3","50","3","C:\Users\Somby\Desktop\Marcell Brass Task - Follow Up\defaultlog.csv","legacy","Jazzy James","3.1.4","0","space","NA","space","space","NA","NA","NA","NA","NA","space","9421","NA","15031","9421","NA","NA","NA","NA","NA","3201","2","legacy","1024","2","48000","-16","experiment","0","even","43640","592382","19489","61230","50257","601323","NA","NA","43139","591882","NA","4458","51808","NA","NA","NA","NA","NA","NA","NA","NA","NA","43138","591880","NA","NA","1256","2031","1254","602823","Nouvelle expérience","0","0","0","yes","2_index.avi","4531","1280"
"Baseline_1","undefined","1","undefined","undefined","black","no","legacy","legacy","legacy","compatible","0","1","3","uniform","0","undefined","undefined","3","3","51","0","0","3","51","NA","0","3","51","NA","0","0","0","0","3","51","NA","NA","NA","0","0","3","51","NA","NA","0","0","55","08/03/18 14:09:11","The main experiment item","yes","1MarcellBrass_FollowUp.osexp","C:\Users\Somby\Desktop\Marcell Brass Task - Follow Up","no","no","mono","no","18","no","white","no","yes","720","legacy","3894","3","51","3","C:\Users\Somby\Desktop\Marcell Brass Task - Follow Up\defaultlog.csv","legacy","Jazzy James","3.1.4","0","space","NA","space","space","NA","NA","NA","NA","NA","space","9421","NA","15031","9421","NA","NA","NA","NA","NA","3201","2","legacy","1024","2","48000","-16","experiment","0","even","43640","603401","19489","61230","50257","610077","NA","NA","43139","602901","NA","4458","51808","NA","NA","NA","NA","NA","NA","NA","NA","NA","43138","602899","NA","NA","1256","2040","1254","611577","Nouvelle expérience","0","0","0","yes","1_middle.avi","4541","1280"
"Baseline_1","undefined","1","undefined","undefined","black","no","legacy","legacy","legacy","compatible","0","1","1","uniform","0","undefined","undefined","1","3","52","0","0","3","52","NA","0","3","52","NA","0","0","0","0","3","52","NA","NA","NA","0","0","3","52","NA","NA","0","0","56","08/03/18 14:09:11","The main experiment item","yes","1MarcellBrass_FollowUp.osexp","C:\Users\Somby\Desktop\Marcell Brass Task - Follow Up","no","no","mono","no","18","no","white","no","yes","720","legacy","3387","1","52","3","C:\Users\Somby\Desktop\Marcell Brass Task - Follow Up\defaultlog.csv","legacy","Jazzy James","3.1.4","0","space","NA","space","space","NA","NA","NA","NA","NA","space","9421","NA","15031","9421","NA","NA","NA","NA","NA","3201","2","legacy","1024","2","48000","-16","experiment","0","even","43640","612161","19489","61230","50257","618903","NA","NA","43139","611661","NA","4458","51808","NA","NA","NA","NA","NA","NA","NA","NA","NA","43138","611660","NA","NA","1256","2034","1254","620403","Nouvelle expérience","0","0","0","yes","1_index.avi","4534","1280"
"Baseline_1","undefined","0","undefined","undefined","black","no","legacy","legacy","legacy","compatible","0","1","3","uniform","0","undefined","undefined","3","3","53","0","0","3","53","NA","0","3","53","NA","0","0","0","0","3","53","NA","NA","NA","0","0","3","53","NA","NA","0","0","57","08/03/18 14:09:11","The main experiment item","yes","1MarcellBrass_FollowUp.osexp","C:\Users\Somby\Desktop\Marcell Brass Task - Follow Up","no","no","mono","no","18","no","white","no","yes","720","legacy","4476","1","53","3","C:\Users\Somby\Desktop\Marcell Brass Task - Follow Up\defaultlog.csv","legacy","Jazzy James","3.1.4","0","space","NA","space","space","NA","NA","NA","NA","NA","space","9421","NA","15031","9421","NA","NA","NA","NA","NA","3201","2","legacy","1024","2","48000","-16","experiment","0","even","43640","620998","19489","61230","50257","632467","NA","NA","43139","620498","NA","4458","51808","NA","NA","NA","NA","NA","NA","NA","NA","NA","43138","620497","NA","NA","1256","2023","1254","633967","Nouvelle expérience","0","0","0","yes","1_middle.avi","4523","1280"
"Baseline_1","undefined","0","undefined","undefined","black","no","legacy","legacy","legacy","incompatible","0","2","3","uniform","0","undefined","undefined","3","3","54","0","0","3","54","NA","0","3","54","NA","0","0","0","0","3","54","NA","NA","NA","0","0","3","54","NA","NA","0","0","58","08/03/18 14:09:11","The main experiment item","yes","1MarcellBrass_FollowUp.osexp","C:\Users\Somby\Desktop\Marcell Brass Task - Follow Up","no","no","mono","no","18","no","white","no","yes","720","legacy","2033","1","54","3","C:\Users\Somby\Desktop\Marcell Brass Task - Follow Up\defaultlog.csv","legacy","Jazzy James","3.1.4","0","space","NA","space","space","NA","NA","NA","NA","NA","space","9421","NA","15031","9421","NA","NA","NA","NA","NA","3201","2","legacy","1024","2","48000","-16","experiment","0","even","43640","634555","19489","61230","50257","645247","NA","NA","43139","634055","NA","4458","51808","NA","NA","NA","NA","NA","NA","NA","NA","NA","43138","634054","NA","NA","1256","2028","1254","646747","Nouvelle expérience","0","0","0","yes","2_index.avi","4528","1280"
